wavelength,intensity
4000,0.0000
4001,0.0000
4001,0.0000
4002,0.0000
4003,0.0000
4004,0.0000
4005,0.0000
4006,0.0000
4007,0.0000
4008,0.0037
4009,0.0047
4009,0.0002
4010,0.0000
4011,0.0000
4012,0.0030
4013,0.0121
4014,0.0139
4015,0.0048
4016,0.0000
4017,0.0000
4018,0.0000
4018,0.0042
4019,0.0060
4020,0.0000
4021,0.0000
4022,0.0056
4023,0.0087
4024,0.0038
4025,0.0005
4026,0.0003
4026,0.0000
4027,0.0000
4028,0.0000
4029,0.0000
4030,0.0030
4031,0.0056
4032,0.0054
4033,0.0000
4034,0.0000
4035,0.0000
4035,0.0000
4036,0.0000
4037,0.0000
4038,0.0000
4039,0.0000
4040,0.0000
4041,0.0000
4042,0.0000
4043,0.0000
4043,0.0000
4044,0.0007
4045,0.0037
4046,0.0055
4047,0.0036
4048,0.0022
4049,0.0024
4050,0.0016
4051,0.0000
4052,0.0000
4052,0.0000
4053,0.0002
4054,0.0000
4055,0.0000
4056,0.0000
4057,0.0000
4058,0.0000
4059,0.0000
4060,0.0000
4060,0.0000
4061,0.0151
4062,0.0274
4063,0.0084
4064,0.0000
4065,0.0000
4066,0.0011
4067,0.0042
4068,0.0064
4069,0.0032
4069,0.0003
4070,0.0005
4071,0.0014
4072,0.0078
4073,0.0128
4074,0.0067
4075,0.0013
4076,0.0018
4077,0.0019
4078,0.0000
4078,0.0000
4079,0.0000
4080,0.0000
4081,0.0039
4082,0.0081
4083,0.0031
4084,0.0000
4085,0.0000
4086,0.0000
4086,0.0000
4087,0.0000
4088,0.0000
4089,0.0010
4090,0.0000
4091,0.0000
4092,0.0000
4093,0.0012
4094,0.0045
4095,0.0078
4095,0.0054
4096,0.0029
4097,0.0000
4098,0.0000
4099,0.0000
4100,0.0000
4101,0.0046
4102,0.0162
4103,0.0062
4103,0.0000
4104,0.0000
4105,0.0000
4106,0.0000
4107,0.0000
4108,0.0000
4109,0.0000
4110,0.0020
4111,0.0041
4112,0.0011
4112,0.0000
4113,0.0000
4114,0.0000
4115,0.0000
4116,0.0000
4117,0.0002
4118,0.0005
4119,0.0015
4120,0.0027
4120,0.0025
4121,0.0021
4122,0.0005
4123,0.0000
4124,0.0000
4125,0.0000
4126,0.0000
4127,0.0045
4128,0.0073
4129,0.0096
4129,0.0046
4130,0.0000
4131,0.0000
4132,0.0000
4133,0.0000
4134,0.0000
4135,0.0000
4136,0.0020
4137,0.0000
4137,0.0000
4138,0.0000
4139,0.0130
4140,0.0059
4141,0.0000
4142,0.0000
4143,0.0072
4144,0.0050
4145,0.0000
4146,0.0000
4146,0.0000
4147,0.0000
4148,0.0000
4149,0.0019
4150,0.0044
4151,0.0021
4152,0.0000
4153,0.0005
4154,0.0064
4154,0.0077
4155,0.0070
4156,0.0054
4157,0.0036
4158,0.0010
4159,0.0000
4160,0.0000
4161,0.0030
4162,0.0033
4163,0.0017
4163,0.0000
4164,0.0000
4165,0.0000
4166,0.0000
4167,0.0000
4168,0.0000
4169,0.0000
4170,0.0012
4171,0.0018
4171,0.0009
4172,0.0000
4173,0.0000
4174,0.0000
4175,0.0002
4176,0.0009
4177,0.0015
4178,0.0020
4179,0.0023
4180,0.0021
4180,0.0014
4181,0.0014
4182,0.0021
4183,0.0005
4184,0.0000
4185,0.0000
4186,0.0031
4187,0.0036
4188,0.0000
4188,0.0000
4189,0.0000
4190,0.0000
4191,0.0000
4192,0.0000
4193,0.0021
4194,0.0021
4195,0.0000
4196,0.0000
4197,0.0000
4197,0.0018
4198,0.0025
4199,0.0039
4200,0.0061
4201,0.0055
4202,0.0013
4203,0.0000
4204,0.0000
4205,0.0000
4205,0.0004
4206,0.0019
4207,0.0010
4208,0.0005
4209,0.0008
4210,0.0003
4211,0.0000
4212,0.0000
4213,0.0000
4214,0.0000
4214,0.0005
4215,0.0023
4216,0.0015
4217,0.0008
4218,0.0003
4219,0.0002
4220,0.0008
4221,0.0011
4222,0.0004
4222,0.0000
4223,0.0000
4224,0.0000
4225,0.0000
4226,0.0000
4227,0.0000
4228,0.0000
4229,0.0002
4230,0.0011
4231,0.0019
4231,0.0019
4232,0.0000
4233,0.0000
4234,0.0000
4235,0.0007
4236,0.0006
4237,0.0007
4238,0.0013
4239,0.0013
4239,0.0000
4240,0.0000
4241,0.0000
4242,0.0000
4243,0.0000
4244,0.0001
4245,0.0036
4246,0.0063
4247,0.0043
4248,0.0020
4248,0.0000
4249,0.0000
4250,0.0000
4251,0.0000
4252,0.0000
4253,0.0018
4254,0.0011
4255,0.0005
4256,0.0000
4257,0.0000
4257,0.0000
4258,0.0005
4259,0.0008
4260,0.0010
4261,0.0000
4262,0.0000
4263,0.0001
4264,0.0020
4265,0.0021
4265,0.0021
4266,0.0007
4267,0.0000
4268,0.0000
4269,0.0000
4270,0.0001
4271,0.0017
4272,0.0025
4273,0.0031
4274,0.0000
4274,0.0000
4275,0.0000
4276,0.0000
4277,0.0000
4278,0.0000
4279,0.0002
4280,0.0005
4281,0.0003
4282,0.0001
4282,0.0010
4283,0.0020
4284,0.0000
4285,0.0000
4286,0.0000
4287,0.0020
4288,0.0000
4289,0.0000
4290,0.0000
4291,0.0000
4291,0.0000
4292,0.0000
4293,0.0000
4294,0.0007
4295,0.0000
4296,0.0000
4297,0.0000
4298,0.0000
4299,0.0000
4299,0.0038
4300,0.0024
4301,0.0000
4302,0.0000
4303,0.0000
4304,0.0000
4305,0.0000
4306,0.0030
4307,0.0091
4308,0.0056
4308,0.0000
4309,0.0001
4310,0.0025
4311,0.0031
4312,0.0032
4313,0.0016
4314,0.0000
4315,0.0000
4316,0.0000
4316,0.0000
4317,0.0000
4318,0.0000
4319,0.0000
4320,0.0000
4321,0.0000
4322,0.0000
4323,0.0000
4324,0.0000
4325,0.0000
4325,0.0000
4326,0.0000
4327,0.0000
4328,0.0000
4329,0.0004
4330,0.0036
4331,0.0015
4332,0.0000
4333,0.0000
4333,0.0000
4334,0.0011
4335,0.0061
4336,0.0105
4337,0.0147
4338,0.0218
4339,0.0309
4340,0.0357
4341,0.0377
4342,0.0299
4342,0.0152
4343,0.0055
4344,0.0000
4345,0.0000
4346,0.0000
4347,0.0000
4348,0.0000
4349,0.0000
4350,0.0004
4350,0.0000
4351,0.0000
4352,0.0000
4353,0.0000
4354,0.0000
4355,0.0000
4356,0.0000
4357,0.0000
4358,0.0006
4359,0.0044
4359,0.0034
4360,0.0000
4361,0.0000
4362,0.0011
4363,0.0037
4364,0.0031
4365,0.0025
4366,0.0021
4367,0.0015
4367,0.0007
4368,0.0002
4369,0.0002
4370,0.0005
4371,0.0013
4372,0.0013
4373,0.0001
4374,0.0000
4375,0.0005
4376,0.0004
4376,0.0000
4377,0.0000
4378,0.0000
4379,0.0000
4380,0.0000
4381,0.0010
4382,0.0010
4383,0.0010
4384,0.0007
4384,0.0003
4385,0.0000
4386,0.0000
4387,0.0000
4388,0.0000
4389,0.0010
4390,0.0019
4391,0.0012
4392,0.0008
4393,0.0015
4393,0.0014
4394,0.0000
4395,0.0000
4396,0.0000
4397,0.0006
4398,0.0011
4399,0.0021
4400,0.0049
4401,0.0066
4401,0.0041
4402,0.0016
4403,0.0000
4404,0.0000
4405,0.0000
4406,0.0008
4407,0.0001
4408,0.0000
4409,0.0000
4410,0.0002
4410,0.0005
4411,0.0007
4412,0.0003
4413,0.0000
4414,0.0005
4415,0.0009
4416,0.0003
4417,0.0000
4418,0.0000
4418,0.0000
4419,0.0000
4420,0.0014
4421,0.0026
4422,0.0036
4423,0.0013
4424,0.0000
4425,0.0009
4426,0.0024
4427,0.0001
4427,0.0000
4428,0.0011
4429,0.0042
4430,0.0020
4431,0.0000
4432,0.0004
4433,0.0011
4434,0.0007
4435,0.0003
4436,0.0016
4436,0.0030
4437,0.0001
4438,0.0000
4439,0.0000
4440,0.0000
4441,0.0000
4442,0.0000
4443,0.0000
4444,0.0000
4444,0.0000
4445,0.0023
4446,0.0000
4447,0.0000
4448,0.0000
4449,0.0000
4450,0.0000
4451,0.0000
4452,0.0009
4453,0.0014
4453,0.0000
4454,0.0000
4455,0.0000
4456,0.0017
4457,0.0003
4458,0.0000
4459,0.0000
4460,0.0000
4461,0.0003
4461,0.0013
4462,0.0000
4463,0.0000
4464,0.0000
4465,0.0022
4466,0.0022
4467,0.0016
4468,0.0000
4469,0.0000
4470,0.0000
4470,0.0000
4471,0.0000
4472,0.0000
4473,0.0000
4474,0.0014
4475,0.0023
4476,0.0015
4477,0.0000
4478,0.0000
4478,0.0000
4479,0.0000
4480,0.0000
4481,0.0000
4482,0.0000
4483,0.0000
4484,0.0000
4485,0.0000
4486,0.0000
4487,0.0000
4487,0.0000
4488,0.0000
4489,0.0000
4490,0.0000
4491,0.0000
4492,0.0000
4493,0.0000
4494,0.0000
4495,0.0005
4495,0.0008
4496,0.0000
4497,0.0000
4498,0.0000
4499,0.0014
4500,0.0010
4501,0.0000
4502,0.0000
4503,0.0031
4504,0.0034
4504,0.0000
4505,0.0000
4506,0.0001
4507,0.0001
4508,0.0000
4509,0.0000
4510,0.0000
4511,0.0000
4512,0.0000
4512,0.0000
4513,0.0000
4514,0.0000
4515,0.0000
4516,0.0000
4517,0.0000
4518,0.0005
4519,0.0006
4520,0.0007
4521,0.0007
4521,0.0008
4522,0.0009
4523,0.0008
4524,0.0004
4525,0.0000
4526,0.0000
4527,0.0000
4528,0.0013
4529,0.0017
4529,0.0000
4530,0.0000
4531,0.0008
4532,0.0014
4533,0.0003
4534,0.0000
4535,0.0001
4536,0.0008
4537,0.0022
4538,0.0022
4538,0.0000
4539,0.0000
4540,0.0000
4541,0.0000
4542,0.0000
4543,0.0016
4544,0.0031
4545,0.0034
4546,0.0000
4546,0.0000
4547,0.0000
4548,0.0000
4549,0.0000
4550,0.0000
4551,0.0000
4552,0.0000
4553,0.0000
4554,0.0000
4555,0.0000
4555,0.0024
4556,0.0028
4557,0.0030
4558,0.0014
4559,0.0004
4560,0.0035
4561,0.0059
4562,0.0019
4563,0.0000
4563,0.0005
4564,0.0021
4565,0.0002
4566,0.0000
4567,0.0000
4568,0.0000
4569,0.0000
4570,0.0005
4571,0.0012
4572,0.0018
4572,0.0000
4573,0.0000
4574,0.0000
4575,0.0015
4576,0.0001
4577,0.0000
4578,0.0011
4579,0.0036
4580,0.0017
4580,0.0000
4581,0.0000
4582,0.0000
4583,0.0000
4584,0.0012
4585,0.0008
4586,0.0003
4587,0.0002
4588,0.0000
4589,0.0000
4589,0.0000
4590,0.0000
4591,0.0000
4592,0.0000
4593,0.0000
4594,0.0000
4595,0.0000
4596,0.0004
4597,0.0013
4597,0.0008
4598,0.0001
4599,0.0009
4600,0.0020
4601,0.0018
4602,0.0014
4603,0.0012
4604,0.0010
4605,0.0000
4606,0.0000
4606,0.0000
4607,0.0000
4608,0.0000
4609,0.0000
4610,0.0000
4611,0.0000
4612,0.0000
4613,0.0000
4614,0.0000
4615,0.0012
4615,0.0017
4616,0.0017
4617,0.0026
4618,0.0039
4619,0.0033
4620,0.0017
4621,0.0014
4622,0.0017
4623,0.0011
4623,0.0001
4624,0.0000
4625,0.0000
4626,0.0000
4627,0.0000
4628,0.0006
4629,0.0026
4630,0.0022
4631,0.0001
4632,0.0001
4632,0.0016
4633,0.0014
4634,0.0000
4635,0.0000
4636,0.0000
4637,0.0000
4638,0.0000
4639,0.0009
4640,0.0005
4640,0.0000
4641,0.0000
4642,0.0000
4643,0.0008
4644,0.0009
4645,0.0002
4646,0.0000
4647,0.0000
4648,0.0000
4649,0.0000
4649,0.0009
4650,0.0007
4651,0.0005
4652,0.0001
4653,0.0000
4654,0.0000
4655,0.0002
4656,0.0011
4657,0.0016
4657,0.0015
4658,0.0008
4659,0.0000
4660,0.0000
4661,0.0000
4662,0.0000
4663,0.0000
4664,0.0000
4665,0.0000
4666,0.0002
4666,0.0000
4667,0.0000
4668,0.0000
4669,0.0000
4670,0.0000
4671,0.0000
4672,0.0000
4673,0.0000
4674,0.0000
4674,0.0000
4675,0.0000
4676,0.0010
4677,0.0059
4678,0.0097
4679,0.0106
4680,0.0119
4681,0.0148
4682,0.0209
4683,0.0381
4683,0.0508
4684,0.0471
4685,0.0420
4686,0.0307
4687,0.0192
4688,0.0069
4689,0.0000
4690,0.0000
4691,0.0015
4691,0.0011
4692,0.0008
4693,0.0011
4694,0.0011
4695,0.0000
4696,0.0000
4697,0.0000
4698,0.0000
4699,0.0000
4700,0.0000
4700,0.0000
4701,0.0000
4702,0.0005
4703,0.0020
4704,0.0041
4705,0.0058
4706,0.0014
4707,0.0000
4708,0.0000
4708,0.0015
4709,0.0000
4710,0.0000
4711,0.0000
4712,0.0000
4713,0.0007
4714,0.0026
4715,0.0011
4716,0.0000
4717,0.0000
4717,0.0000
4718,0.0000
4719,0.0000
4720,0.0000
4721,0.0000
4722,0.0000
4723,0.0000
4724,0.0000
4725,0.0000
4725,0.0004
4726,0.0017
4727,0.0018
4728,0.0017
4729,0.0008
4730,0.0000
4731,0.0015
4732,0.0036
4733,0.0020
4734,0.0000
4734,0.0007
4735,0.0022
4736,0.0008
4737,0.0000
4738,0.0000
4739,0.0000
4740,0.0000
4741,0.0006
4742,0.0018
4742,0.0032
4743,0.0024
4744,0.0008
4745,0.0012
4746,0.0021
4747,0.0021
4748,0.0018
4749,0.0001
4750,0.0000
4751,0.0000
4751,0.0024
4752,0.0026
4753,0.0016
4754,0.0011
4755,0.0009
4756,0.0015
4757,0.0025
4758,0.0018
4759,0.0002
4759,0.0016
4760,0.0047
4761,0.0040
4762,0.0010
4763,0.0001
4764,0.0007
4765,0.0012
4766,0.0017
4767,0.0023
4768,0.0030
4768,0.0023
4769,0.0005
4770,0.0000
4771,0.0000
4772,0.0006
4773,0.0013
4774,0.0014
4775,0.0008
4776,0.0001
4776,0.0000
4777,0.0000
4778,0.0019
4779,0.0028
4780,0.0027
4781,0.0012
4782,0.0000
4783,0.0000
4784,0.0000
4785,0.0014
4785,0.0016
4786,0.0010
4787,0.0000
4788,0.0000
4789,0.0000
4790,0.0000
4791,0.0000
4792,0.0012
4793,0.0016
4794,0.0014
4794,0.0004
4795,0.0000
4796,0.0009
4797,0.0013
4798,0.0010
4799,0.0007
4800,0.0004
4801,0.0003
4802,0.0008
4802,0.0011
4803,0.0010
4804,0.0008
4805,0.0005
4806,0.0002
4807,0.0001
4808,0.0000
4809,0.0000
4810,0.0000
4811,0.0000
4811,0.0001
4812,0.0001
4813,0.0000
4814,0.0000
4815,0.0000
4816,0.0000
4817,0.0000
4818,0.0007
4819,0.0018
4819,0.0015
4820,0.0012
4821,0.0009
4822,0.0006
4823,0.0003
4824,0.0000
4825,0.0006
4826,0.0008
4827,0.0000
4828,0.0000
4828,0.0000
4829,0.0000
4830,0.0006
4831,0.0022
4832,0.0021
4833,0.0019
4834,0.0006
4835,0.0000
4836,0.0000
4836,0.0000
4837,0.0013
4838,0.0032
4839,0.0014
4840,0.0000
4841,0.0004
4842,0.0010
4843,0.0011
4844,0.0011
4845,0.0025
4845,0.0039
4846,0.0041
4847,0.0042
4848,0.0021
4849,0.0000
4850,0.0010
4851,0.0024
4852,0.0016
4853,0.0007
4853,0.0042
4854,0.0081
4855,0.0139
4856,0.0198
4857,0.0436
4858,0.0698
4859,0.0790
4860,0.0858
4861,0.0733
4862,0.0576
4862,0.0352
4863,0.0115
4864,0.0076
4865,0.0079
4866,0.0053
4867,0.0020
4868,0.0013
4869,0.0012
4870,0.0003
4870,0.0000
4871,0.0000
4872,0.0000
4873,0.0000
4874,0.0005
4875,0.0003
4876,0.0000
4877,0.0000
4878,0.0000
4879,0.0003
4879,0.0006
4880,0.0009
4881,0.0012
4882,0.0012
4883,0.0012
4884,0.0000
4885,0.0000
4886,0.0000
4887,0.0000
4887,0.0000
4888,0.0000
4889,0.0004
4890,0.0021
4891,0.0018
4892,0.0002
4893,0.0001
4894,0.0010
4895,0.0013
4896,0.0013
4896,0.0009
4897,0.0002
4898,0.0003
4899,0.0011
4900,0.0012
4901,0.0008
4902,0.0005
4903,0.0003
4904,0.0003
4904,0.0003
4905,0.0007
4906,0.0016
4907,0.0009
4908,0.0000
4909,0.0000
4910,0.0002
4911,0.0007
4912,0.0000
4913,0.0000
4913,0.0001
4914,0.0007
4915,0.0006
4916,0.0005
4917,0.0002
4918,0.0000
4919,0.0000
4920,0.0000
4921,0.0000
4921,0.0000
4922,0.0000
4923,0.0000
4924,0.0000
4925,0.0000
4926,0.0000
4927,0.0000
4928,0.0000
4929,0.0000
4930,0.0000
4930,0.0000
4931,0.0000
4932,0.0003
4933,0.0032
4934,0.0047
4935,0.0023
4936,0.0008
4937,0.0024
4938,0.0033
4938,0.0017
4939,0.0008
4940,0.0026
4941,0.0037
4942,0.0023
4943,0.0011
4944,0.0012
4945,0.0011
4946,0.0000
4947,0.0000
4947,0.0071
4948,0.0138
4949,0.0162
4950,0.0187
4951,0.0231
4952,0.0282
4953,0.0386
4954,0.0566
4955,0.1460
4955,0.2325
4956,0.2855
4957,0.3321
4958,0.2902
4959,0.2453
4960,0.1492
4961,0.0556
4962,0.0282
4963,0.0014
4964,0.0000
4964,0.0000
4965,0.0000
4966,0.0027
4967,0.0007
4968,0.0000
4969,0.0005
4970,0.0025
4971,0.0010
4972,0.0000
4973,0.0000
4973,0.0004
4974,0.0005
4975,0.0006
4976,0.0011
4977,0.0018
4978,0.0028
4979,0.0038
4980,0.0020
4981,0.0000
4981,0.0020
4982,0.0049
4983,0.0025
4984,0.0000
4985,0.0000
4986,0.0016
4987,0.0027
4988,0.0037
4989,0.0026
4990,0.0009
4990,0.0026
4991,0.0052
4992,0.0135
4993,0.0234
4994,0.0236
4995,0.0210
4996,0.0302
4997,0.0432
4998,0.0571
4998,0.0714
4999,0.0850
5000,0.0983
5001,0.1727
5002,0.2723
5003,0.5225
5004,0.8396
5005,0.9651
5006,1.0000
5007,0.8460
5007,0.5959
5008,0.3604
5009,0.1325
5010,0.0359
5011,0.0152
5012,0.0063
5013,0.0047
5014,0.0038
5015,0.0034
5015,0.0017
5016,0.0000
5017,0.0000
5018,0.0000
5019,0.0007
5020,0.0024
5021,0.0028
5022,0.0021
5023,0.0012
5024,0.0003
5024,0.0000
5025,0.0000
5026,0.0000
5027,0.0000
5028,0.0014
5029,0.0028
5030,0.0024
5031,0.0000
5032,0.0000
5032,0.0000
5033,0.0004
5034,0.0003
5035,0.0000
5036,0.0000
5037,0.0000
5038,0.0000
5039,0.0000
5040,0.0000
5041,0.0000
5041,0.0000
5042,0.0000
5043,0.0000
5044,0.0000
5045,0.0000
5046,0.0000
5047,0.0000
5048,0.0000
5049,0.0008
5049,0.0016
5050,0.0007
5051,0.0001
5052,0.0001
5053,0.0000
5054,0.0000
5055,0.0000
5056,0.0024
5057,0.0044
5058,0.0044
5058,0.0039
5059,0.0020
5060,0.0004
5061,0.0000
5062,0.0000
5063,0.0015
5064,0.0026
5065,0.0012
5066,0.0001
5066,0.0004
5067,0.0007
5068,0.0004
5069,0.0000
5070,0.0000
5071,0.0000
5072,0.0005
5073,0.0030
5074,0.0029
5075,0.0027
5075,0.0020
5076,0.0012
5077,0.0000
5078,0.0000
5079,0.0004
5080,0.0019
5081,0.0000
5082,0.0000
5083,0.0000
5083,0.0002
5084,0.0002
5085,0.0003
5086,0.0000
5087,0.0000
5088,0.0000
5089,0.0000
5090,0.0000
5091,0.0011
5092,0.0007
5092,0.0002
5093,0.0000
5094,0.0000
5095,0.0000
5096,0.0000
5097,0.0000
5098,0.0000
5099,0.0000
5100,0.0000
5100,0.0000
5101,0.0000
5102,0.0000
5103,0.0000
5104,0.0000
5105,0.0000
5106,0.0000
5107,0.0014
5108,0.0041
5109,0.0070
5109,0.0047
5110,0.0010
5111,0.0008
5112,0.0017
5113,0.0003
5114,0.0000
5115,0.0000
5116,0.0000
5117,0.0006
5117,0.0009
5118,0.0006
5119,0.0002
5120,0.0001
5121,0.0000
5122,0.0000
5123,0.0000
5124,0.0000
5125,0.0000
5126,0.0005
5126,0.0014
5127,0.0029
5128,0.0047
5129,0.0035
5130,0.0003
5131,0.0000
5132,0.0013
5133,0.0014
5134,0.0006
5134,0.0001
5135,0.0000
5136,0.0000
5137,0.0000
5138,0.0000
5139,0.0000
5140,0.0000
5141,0.0004
5142,0.0007
5143,0.0000
5143,0.0000
5144,0.0000
5145,0.0004
5146,0.0003
5147,0.0004
5148,0.0007
5149,0.0005
5150,0.0000
5151,0.0000
5152,0.0003
5152,0.0007
5153,0.0005
5154,0.0001
5155,0.0000
5156,0.0000
5157,0.0000
5158,0.0002
5159,0.0000
5160,0.0000
5160,0.0000
5161,0.0000
5162,0.0000
5163,0.0000
5164,0.0000
5165,0.0000
5166,0.0000
5167,0.0005
5168,0.0000
5169,0.0000
5169,0.0000
5170,0.0000
5171,0.0000
5172,0.0000
5173,0.0005
5174,0.0022
5175,0.0015
5176,0.0009
5177,0.0005
5177,0.0001
5178,0.0000
5179,0.0000
5180,0.0000
5181,0.0000
5182,0.0000
5183,0.0000
5184,0.0000
5185,0.0000
5186,0.0002
5186,0.0005
5187,0.0000
5188,0.0000
5189,0.0017
5190,0.0035
5191,0.0011
5192,0.0000
5193,0.0000
5194,0.0000
5194,0.0000
5195,0.0000
5196,0.0000
5197,0.0000
5198,0.0004
5199,0.0011
5200,0.0005
5201,0.0000
5202,0.0000
5203,0.0002
5203,0.0002
5204,0.0003
5205,0.0003
5206,0.0004
5207,0.0007
5208,0.0010
5209,0.0000
5210,0.0000
5211,0.0002
5211,0.0021
5212,0.0017
5213,0.0011
5214,0.0007
5215,0.0003
5216,0.0000
5217,0.0000
5218,0.0000
5219,0.0000
5220,0.0001
5220,0.0010
5221,0.0007
5222,0.0001
5223,0.0000
5224,0.0000
5225,0.0000
5226,0.0000
5227,0.0000
5228,0.0000
5228,0.0000
5229,0.0006
5230,0.0004
5231,0.0000
5232,0.0000
5233,0.0000
5234,0.0000
5235,0.0000
5236,0.0000
5237,0.0000
5237,0.0000
5238,0.0000
5239,0.0013
5240,0.0022
5241,0.0013
5242,0.0000
5243,0.0000
5244,0.0004
5245,0.0005
5245,0.0000
5246,0.0000
5247,0.0000
5248,0.0000
5249,0.0000
5250,0.0000
5251,0.0000
5252,0.0000
5253,0.0010
5254,0.0013
5254,0.0000
5255,0.0000
5256,0.0008
5257,0.0013
5258,0.0007
5259,0.0000
5260,0.0000
5261,0.0000
5262,0.0001
5262,0.0008
5263,0.0013
5264,0.0016
5265,0.0019
5266,0.0016
5267,0.0006
5268,0.0000
5269,0.0000
5270,0.0000
5271,0.0000
5271,0.0000
5272,0.0000
5273,0.0031
5274,0.0029
5275,0.0024
5276,0.0014
5277,0.0007
5278,0.0009
5279,0.0008
5279,0.0004
5280,0.0001
5281,0.0002
5282,0.0001
5283,0.0000
5284,0.0000
5285,0.0000
5286,0.0000
5287,0.0018
5288,0.0032
5288,0.0035
5289,0.0033
5290,0.0012
5291,0.0000
5292,0.0000
5293,0.0000
5294,0.0000
5295,0.0000
5296,0.0000
5296,0.0000
5297,0.0000
5298,0.0000
5299,0.0000
5300,0.0000
5301,0.0000
5302,0.0027
5303,0.0039
5304,0.0050
5305,0.0028
5305,0.0007
5306,0.0010
5307,0.0012
5308,0.0013
5309,0.0015
5310,0.0018
5311,0.0021
5312,0.0022
5313,0.0023
5313,0.0006
5314,0.0000
5315,0.0000
5316,0.0012
5317,0.0007
5318,0.0000
5319,0.0000
5320,0.0000
5321,0.0000
5322,0.0000
5322,0.0010
5323,0.0032
5324,0.0026
5325,0.0015
5326,0.0006
5327,0.0000
5328,0.0000
5329,0.0000
5330,0.0000
5331,0.0012
5331,0.0011
5332,0.0004
5333,0.0008
5334,0.0014
5335,0.0000
5336,0.0000
5337,0.0000
5338,0.0000
5339,0.0002
5339,0.0004
5340,0.0015
5341,0.0028
5342,0.0025
5343,0.0014
5344,0.0009
5345,0.0008
5346,0.0008
5347,0.0010
5348,0.0000
5348,0.0000
5349,0.0000
5350,0.0000
5351,0.0000
5352,0.0009
5353,0.0015
5354,0.0017
5355,0.0024
5356,0.0035
5356,0.0036
5357,0.0030
5358,0.0024
5359,0.0019
5360,0.0017
5361,0.0017
5362,0.0014
5363,0.0008
5364,0.0005
5365,0.0006
5365,0.0007
5366,0.0008
5367,0.0012
5368,0.0022
5369,0.0015
5370,0.0000
5371,0.0000
5372,0.0019
5373,0.0031
5373,0.0007
5374,0.0000
5375,0.0015
5376,0.0020
5377,0.0001
5378,0.0000
5379,0.0000
5380,0.0000
5381,0.0000
5382,0.0000
5382,0.0000
5383,0.0000
5384,0.0000
5385,0.0000
5386,0.0002
5387,0.0013
5388,0.0007
5389,0.0004
5390,0.0007
5390,0.0010
5391,0.0012
5392,0.0011
5393,0.0004
5394,0.0000
5395,0.0000
5396,0.0000
5397,0.0000
5398,0.0002
5399,0.0000
5399,0.0000
5400,0.0000
5401,0.0000
5402,0.0000
5403,0.0000
5404,0.0000
5405,0.0003
5406,0.0007
5407,0.0011
5407,0.0009
5408,0.0007
5409,0.0020
5410,0.0031
5411,0.0021
5412,0.0011
5413,0.0011
5414,0.0011
5415,0.0030
5416,0.0048
5416,0.0020
5417,0.0000
5418,0.0000
5419,0.0000
5420,0.0000
5421,0.0000
5422,0.0000
5423,0.0015
5424,0.0005
5424,0.0000
5425,0.0000
5426,0.0007
5427,0.0008
5428,0.0009
5429,0.0000
5430,0.0000
5431,0.0000
5432,0.0000
5433,0.0000
5433,0.0005
5434,0.0010
5435,0.0013
5436,0.0012
5437,0.0010
5438,0.0010
5439,0.0011
5440,0.0011
5441,0.0012
5441,0.0016
5442,0.0021
5443,0.0013
5444,0.0001
5445,0.0002
5446,0.0007
5447,0.0000
5448,0.0000
5449,0.0000
5450,0.0000
5450,0.0000
5451,0.0000
5452,0.0000
5453,0.0000
5454,0.0000
5455,0.0000
5456,0.0000
5457,0.0000
5458,0.0000
5458,0.0023
5459,0.0032
5460,0.0025
5461,0.0021
5462,0.0020
5463,0.0011
5464,0.0000
5465,0.0000
5466,0.0010
5467,0.0009
5467,0.0000
5468,0.0000
5469,0.0000
5470,0.0000
5471,0.0000
5472,0.0000
5473,0.0015
5474,0.0022
5475,0.0013
5475,0.0004
5476,0.0000
5477,0.0003
5478,0.0026
5479,0.0046
5480,0.0059
5481,0.0057
5482,0.0028
5483,0.0000
5484,0.0000
5484,0.0000
5485,0.0000
5486,0.0000
5487,0.0000
5488,0.0000
5489,0.0000
5490,0.0000
5491,0.0000
5492,0.0008
5492,0.0014
5493,0.0011
5494,0.0000
5495,0.0000
5496,0.0000
5497,0.0000
5498,0.0011
5499,0.0027
5500,0.0039
5501,0.0046
5501,0.0033
5502,0.0020
5503,0.0007
5504,0.0000
5505,0.0006
5506,0.0015
5507,0.0024
5508,0.0032
5509,0.0029
5510,0.0026
5510,0.0021
5511,0.0015
5512,0.0000
5513,0.0000
5514,0.0000
5515,0.0000
5516,0.0000
5517,0.0003
5518,0.0018
5518,0.0034
5519,0.0010
5520,0.0000
5521,0.0000
5522,0.0000
5523,0.0000
5524,0.0003
5525,0.0000
5526,0.0000
5527,0.0000
5527,0.0005
5528,0.0015
5529,0.0024
5530,0.0006
5531,0.0000
5532,0.0000
5533,0.0000
5534,0.0005
5535,0.0013
5535,0.0017
5536,0.0020
5537,0.0009
5538,0.0000
5539,0.0000
5540,0.0012
5541,0.0016
5542,0.0017
5543,0.0008
5544,0.0000
5544,0.0000
5545,0.0000
5546,0.0000
5547,0.0000
5548,0.0000
5549,0.0006
5550,0.0007
5551,0.0000
5552,0.0000
5552,0.0000
5553,0.0000
5554,0.0000
5555,0.0000
5556,0.0009
5557,0.0014
5558,0.0012
5559,0.0015
5560,0.0021
5561,0.0015
5561,0.0000
5562,0.0000
5563,0.0000
5564,0.0003
5565,0.0005
5566,0.0006
5567,0.0006
5568,0.0005
5569,0.0002
5569,0.0000
5570,0.0000
5571,0.0000
5572,0.0000
5573,0.0000
5574,0.0006
5575,0.0025
5576,0.0035
5577,0.0046
5578,0.0058
5578,0.0047
5579,0.0000
5580,0.0000
5581,0.0000
5582,0.0000
5583,0.0001
5584,0.0011
5585,0.0007
5586,0.0003
5586,0.0001
5587,0.0000
5588,0.0000
5589,0.0000
5590,0.0012
5591,0.0023
5592,0.0012
5593,0.0003
5594,0.0006
5595,0.0007
5595,0.0002
5596,0.0000
5597,0.0018
5598,0.0034
5599,0.0033
5600,0.0031
5601,0.0013
5602,0.0000
5603,0.0000
5603,0.0002
5604,0.0009
5605,0.0014
5606,0.0007
5607,0.0001
5608,0.0006
5609,0.0011
5610,0.0014
5611,0.0017
5612,0.0025
5612,0.0034
5613,0.0030
5614,0.0026
5615,0.0000
5616,0.0000
5617,0.0000
5618,0.0008
5619,0.0000
5620,0.0000
5620,0.0000
5621,0.0010
5622,0.0000
5623,0.0000
5624,0.0000
5625,0.0017
5626,0.0028
5627,0.0039
5628,0.0031
5629,0.0020
5629,0.0009
5630,0.0000
5631,0.0003
5632,0.0012
5633,0.0009
5634,0.0003
5635,0.0012
5636,0.0025
5637,0.0018
5637,0.0004
5638,0.0002
5639,0.0004
5640,0.0005
5641,0.0005
5642,0.0005
5643,0.0004
5644,0.0003
5645,0.0004
5646,0.0008
5646,0.0015
5647,0.0009
5648,0.0000
5649,0.0000
5650,0.0000
5651,0.0002
5652,0.0005
5653,0.0002
5654,0.0000
5654,0.0000
5655,0.0005
5656,0.0008
5657,0.0007
5658,0.0007
5659,0.0009
5660,0.0000
5661,0.0000
5662,0.0000
5663,0.0000
5663,0.0002
5664,0.0009
5665,0.0005
5666,0.0000
5667,0.0000
5668,0.0000
5669,0.0000
5670,0.0000
5671,0.0000
5671,0.0000
5672,0.0006
5673,0.0006
5674,0.0007
5675,0.0010
5676,0.0007
5677,0.0000
5678,0.0000
5679,0.0000
5680,0.0006
5680,0.0002
5681,0.0001
5682,0.0006
5683,0.0007
5684,0.0000
5685,0.0000
5686,0.0000
5687,0.0000
5688,0.0005
5689,0.0007
5689,0.0000
5690,0.0000
5691,0.0000
5692,0.0000
5693,0.0000
5694,0.0000
5695,0.0000
5696,0.0000
5697,0.0006
5697,0.0011
5698,0.0012
5699,0.0013
5700,0.0013
5701,0.0013
5702,0.0010
5703,0.0006
5704,0.0000
5705,0.0000
5706,0.0000
5706,0.0005
5707,0.0000
5708,0.0000
5709,0.0002
5710,0.0032
5711,0.0019
5712,0.0003
5713,0.0000
5714,0.0000
5714,0.0000
5715,0.0013
5716,0.0007
5717,0.0000
5718,0.0000
5719,0.0000
5720,0.0011
5721,0.0030
5722,0.0011
5723,0.0000
5723,0.0001
5724,0.0029
5725,0.0024
5726,0.0010
5727,0.0000
5728,0.0000
5729,0.0000
5730,0.0000
5731,0.0005
5731,0.0007
5732,0.0000
5733,0.0000
5734,0.0000
5735,0.0000
5736,0.0007
5737,0.0011
5738,0.0002
5739,0.0000
5740,0.0000
5740,0.0005
5741,0.0010
5742,0.0008
5743,0.0000
5744,0.0000
5745,0.0000
5746,0.0000
5747,0.0000
5748,0.0000
5748,0.0000
5749,0.0004
5750,0.0018
5751,0.0041
5752,0.0038
5753,0.0006
5754,0.0000
5755,0.0000
5756,0.0000
5757,0.0000
5757,0.0000
5758,0.0006
5759,0.0009
5760,0.0000
5761,0.0000
5762,0.0009
5763,0.0014
5764,0.0000
5765,0.0000
5765,0.0011
5766,0.0017
5767,0.0003
5768,0.0000
5769,0.0000
5770,0.0000
5771,0.0000
5772,0.0006
5773,0.0000
5774,0.0000
5774,0.0003
5775,0.0006
5776,0.0000
5777,0.0000
5778,0.0000
5779,0.0000
5780,0.0007
5781,0.0013
5782,0.0006
5782,0.0000
5783,0.0011
5784,0.0020
5785,0.0014
5786,0.0008
5787,0.0006
5788,0.0004
5789,0.0016
5790,0.0027
5791,0.0017
5791,0.0007
5792,0.0017
5793,0.0028
5794,0.0012
5795,0.0000
5796,0.0000
5797,0.0000
5798,0.0000
5799,0.0000
5799,0.0000
5800,0.0000
5801,0.0000
5802,0.0000
5803,0.0004
5804,0.0012
5805,0.0002
5806,0.0000
5807,0.0000
5808,0.0004
5808,0.0003
5809,0.0001
5810,0.0000
5811,0.0000
5812,0.0000
5813,0.0000
5814,0.0000
5815,0.0000
5816,0.0010
5816,0.0029
5817,0.0021
5818,0.0003
5819,0.0000
5820,0.0000
5821,0.0000
5822,0.0009
5823,0.0019
5824,0.0024
5825,0.0024
5825,0.0023
5826,0.0019
5827,0.0015
5828,0.0014
5829,0.0015
5830,0.0021
5831,0.0031
5832,0.0021
5833,0.0000
5833,0.0000
5834,0.0011
5835,0.0015
5836,0.0007
5837,0.0010
5838,0.0025
5839,0.0035
5840,0.0038
5841,0.0029
5842,0.0005
5842,0.0000
5843,0.0003
5844,0.0010
5845,0.0015
5846,0.0014
5847,0.0001
5848,0.0000
5849,0.0000
5850,0.0001
5850,0.0013
5851,0.0021
5852,0.0018
5853,0.0012
5854,0.0001
5855,0.0000
5856,0.0000
5857,0.0002
5858,0.0000
5859,0.0000
5859,0.0000
5860,0.0000
5861,0.0000
5862,0.0000
5863,0.0000
5864,0.0000
5865,0.0000
5866,0.0000
5867,0.0000
5868,0.0000
5868,0.0000
5869,0.0000
5870,0.0000
5871,0.0000
5872,0.0004
5873,0.0044
5874,0.0026
5875,0.0008
5876,0.0012
5876,0.0016
5877,0.0012
5878,0.0009
5879,0.0008
5880,0.0007
5881,0.0004
5882,0.0000
5883,0.0000
5884,0.0000
5885,0.0000
5885,0.0000
5886,0.0000
5887,0.0000
5888,0.0000
5889,0.0003
5890,0.0000
5891,0.0000
5892,0.0000
5893,0.0000
5893,0.0000
5894,0.0000
5895,0.0025
5896,0.0021
5897,0.0000
5898,0.0000
5899,0.0000
5900,0.0000
5901,0.0000
5902,0.0009
5902,0.0014
5903,0.0007
5904,0.0000
5905,0.0000
5906,0.0000
5907,0.0000
5908,0.0000
5909,0.0007
5910,0.0008
5910,0.0005
5911,0.0001
5912,0.0000
5913,0.0000
5914,0.0000
5915,0.0000
5916,0.0007
5917,0.0010
5918,0.0003
5919,0.0003
5919,0.0008
5920,0.0007
5921,0.0000
5922,0.0000
5923,0.0000
5924,0.0001
5925,0.0003
5926,0.0001
5927,0.0000
5927,0.0000
5928,0.0000
5929,0.0000
5930,0.0001
5931,0.0007
5932,0.0015
5933,0.0019
5934,0.0013
5935,0.0008
5936,0.0006
5936,0.0004
5937,0.0002
5938,0.0000
5939,0.0000
5940,0.0000
5941,0.0000
5942,0.0000
5943,0.0000
5944,0.0000
5944,0.0003
5945,0.0018
5946,0.0012
5947,0.0007
5948,0.0008
5949,0.0009
5950,0.0000
5951,0.0000
5952,0.0000
5953,0.0003
5953,0.0019
5954,0.0032
5955,0.0004
5956,0.0000
5957,0.0000
5958,0.0000
5959,0.0000
5960,0.0004
5961,0.0018
5961,0.0033
5962,0.0018
5963,0.0002
5964,0.0000
5965,0.0000
5966,0.0000
5967,0.0000
5968,0.0000
5969,0.0006
5970,0.0000
5970,0.0000
5971,0.0000
5972,0.0018
5973,0.0009
5974,0.0000
5975,0.0000
5976,0.0000
5977,0.0000
5978,0.0000
5978,0.0000
5979,0.0002
5980,0.0011
5981,0.0022
5982,0.0029
5983,0.0033
5984,0.0032
5985,0.0029
5986,0.0013
5987,0.0000
5987,0.0000
5988,0.0000
5989,0.0000
5990,0.0000
5991,0.0000
5992,0.0000
5993,0.0000
5994,0.0000
5995,0.0000
5995,0.0000
5996,0.0000
5997,0.0001
5998,0.0003
5999,0.0007
6000,0.0002
6001,0.0000
6002,0.0000
6003,0.0000
6004,0.0004
6004,0.0020
6005,0.0022
6006,0.0000
6007,0.0000
6008,0.0000
6009,0.0005
6010,0.0023
6011,0.0031
6012,0.0019
6012,0.0011
6013,0.0009
6014,0.0005
6015,0.0000
6016,0.0000
6017,0.0000
6018,0.0000
6019,0.0009
6020,0.0027
6021,0.0018
6021,0.0009
6022,0.0000
6023,0.0000
6024,0.0000
6025,0.0000
6026,0.0009
6027,0.0014
6028,0.0000
6029,0.0000
6029,0.0000
6030,0.0000
6031,0.0000
6032,0.0016
6033,0.0006
6034,0.0000
6035,0.0000
6036,0.0003
6037,0.0000
6038,0.0000
6038,0.0000
6039,0.0001
6040,0.0001
6041,0.0002
6042,0.0004
6043,0.0007
6044,0.0017
6045,0.0028
6046,0.0016
6047,0.0001
6047,0.0004
6048,0.0010
6049,0.0000
6050,0.0000
6051,0.0000
6052,0.0000
6053,0.0000
6054,0.0000
6055,0.0000
6055,0.0000
6056,0.0008
6057,0.0014
6058,0.0001
6059,0.0000
6060,0.0000
6061,0.0000
6062,0.0000
6063,0.0033
6064,0.0032
6064,0.0012
6065,0.0009
6066,0.0016
6067,0.0020
6068,0.0022
6069,0.0027
6070,0.0035
6071,0.0021
6072,0.0000
6072,0.0000
6073,0.0032
6074,0.0033
6075,0.0000
6076,0.0000
6077,0.0000
6078,0.0001
6079,0.0005
6080,0.0004
6081,0.0000
6081,0.0000
6082,0.0000
6083,0.0000
6084,0.0005
6085,0.0017
6086,0.0006
6087,0.0000
6088,0.0000
6089,0.0001
6089,0.0018
6090,0.0027
6091,0.0008
6092,0.0000
6093,0.0010
6094,0.0017
6095,0.0003
6096,0.0000
6097,0.0004
6098,0.0014
6098,0.0020
6099,0.0023
6100,0.0007
6101,0.0000
6102,0.0006
6103,0.0017
6104,0.0000
6105,0.0000
6106,0.0000
6106,0.0000
6107,0.0013
6108,0.0026
6109,0.0035
6110,0.0044
6111,0.0032
6112,0.0019
6113,0.0014
6114,0.0009
6115,0.0011
6115,0.0013
6116,0.0031
6117,0.0051
6118,0.0027
6119,0.0000
6120,0.0000
6121,0.0000
6122,0.0000
6123,0.0000
6123,0.0014
6124,0.0036
6125,0.0028
6126,0.0013
6127,0.0000
6128,0.0000
6129,0.0000
6130,0.0000
6131,0.0000
6132,0.0000
6132,0.0000
6133,0.0000
6134,0.0000
6135,0.0013
6136,0.0013
6137,0.0005
6138,0.0000
6139,0.0000
6140,0.0000
6140,0.0000
6141,0.0009
6142,0.0016
6143,0.0013
6144,0.0000
6145,0.0000
6146,0.0008
6147,0.0011
6148,0.0005
6149,0.0004
6149,0.0009
6150,0.0013
6151,0.0017
6152,0.0016
6153,0.0008
6154,0.0000
6155,0.0000
6156,0.0000
6157,0.0000
6157,0.0000
6158,0.0000
6159,0.0000
6160,0.0003
6161,0.0005
6162,0.0004
6163,0.0005
6164,0.0014
6165,0.0017
6166,0.0000
6166,0.0000
6167,0.0000
6168,0.0013
6169,0.0020
6170,0.0025
6171,0.0011
6172,0.0000
6173,0.0008
6174,0.0015
6174,0.0007
6175,0.0000
6176,0.0000
6177,0.0000
6178,0.0000
6179,0.0000
6180,0.0011
6181,0.0026
6182,0.0016
6183,0.0006
6183,0.0016
6184,0.0027
6185,0.0006
6186,0.0000
6187,0.0000
6188,0.0002
6189,0.0004
6190,0.0004
6191,0.0012
6191,0.0021
6192,0.0007
6193,0.0000
6194,0.0000
6195,0.0011
6196,0.0023
6197,0.0032
6198,0.0037
6199,0.0040
6200,0.0048
6200,0.0059
6201,0.0042
6202,0.0013
6203,0.0006
6204,0.0011
6205,0.0004
6206,0.0000
6207,0.0000
6208,0.0002
6208,0.0010
6209,0.0014
6210,0.0007
6211,0.0000
6212,0.0000
6213,0.0000
6214,0.0000
6215,0.0011
6216,0.0010
6217,0.0000
6217,0.0000
6218,0.0001
6219,0.0000
6220,0.0000
6221,0.0000
6222,0.0000
6223,0.0012
6224,0.0000
6225,0.0000
6226,0.0000
6226,0.0006
6227,0.0008
6228,0.0005
6229,0.0000
6230,0.0000
6231,0.0014
6232,0.0033
6233,0.0014
6234,0.0000
6234,0.0000
6235,0.0000
6236,0.0000
6237,0.0000
6238,0.0000
6239,0.0001
6240,0.0005
6241,0.0010
6242,0.0008
6243,0.0006
6243,0.0007
6244,0.0008
6245,0.0008
6246,0.0008
6247,0.0014
6248,0.0020
6249,0.0022
6250,0.0025
6251,0.0014
6251,0.0003
6252,0.0012
6253,0.0024
6254,0.0008
6255,0.0000
6256,0.0003
6257,0.0025
6258,0.0011
6259,0.0000
6260,0.0000
6260,0.0000
6261,0.0000
6262,0.0000
6263,0.0000
6264,0.0000
6265,0.0000
6266,0.0006
6267,0.0009
6268,0.0008
6268,0.0006
6269,0.0002
6270,0.0007
6271,0.0018
6272,0.0019
6273,0.0013
6274,0.0009
6275,0.0008
6276,0.0009
6277,0.0013
6277,0.0006
6278,0.0000
6279,0.0000
6280,0.0013
6281,0.0024
6282,0.0021
6283,0.0018
6284,0.0015
6285,0.0020
6285,0.0037
6286,0.0037
6287,0.0008
6288,0.0000
6289,0.0004
6290,0.0010
6291,0.0003
6292,0.0000
6293,0.0000
6294,0.0000
6294,0.0001
6295,0.0011
6296,0.0043
6297,0.0067
6298,0.0056
6299,0.0049
6300,0.0066
6301,0.0073
6302,0.0015
6302,0.0000
6303,0.0000
6304,0.0014
6305,0.0007
6306,0.0001
6307,0.0014
6308,0.0026
6309,0.0006
6310,0.0000
6311,0.0000
6311,0.0000
6312,0.0017
6313,0.0041
6314,0.0037
6315,0.0031
6316,0.0023
6317,0.0015
6318,0.0013
6319,0.0011
6319,0.0012
6320,0.0012
6321,0.0009
6322,0.0006
6323,0.0000
6324,0.0000
6325,0.0000
6326,0.0000
6327,0.0000
6328,0.0016
6328,0.0018
6329,0.0014
6330,0.0018
6331,0.0026
6332,0.0012
6333,0.0000
6334,0.0000
6335,0.0005
6336,0.0007
6336,0.0000
6337,0.0000
6338,0.0000
6339,0.0000
6340,0.0000
6341,0.0000
6342,0.0019
6343,0.0021
6344,0.0000
6345,0.0000
6345,0.0000
6346,0.0000
6347,0.0005
6348,0.0013
6349,0.0015
6350,0.0012
6351,0.0002
6352,0.0000
6353,0.0000
6353,0.0000
6354,0.0000
6355,0.0000
6356,0.0000
6357,0.0016
6358,0.0010
6359,0.0006
6360,0.0012
6361,0.0015
6362,0.0000
6362,0.0000
6363,0.0000
6364,0.0002
6365,0.0000
6366,0.0000
6367,0.0000
6368,0.0010
6369,0.0005
6370,0.0000
6370,0.0004
6371,0.0008
6372,0.0000
6373,0.0000
6374,0.0000
6375,0.0000
6376,0.0000
6377,0.0000
6378,0.0002
6379,0.0023
6379,0.0009
6380,0.0000
6381,0.0000
6382,0.0007
6383,0.0010
6384,0.0011
6385,0.0008
6386,0.0005
6387,0.0000
6387,0.0000
6388,0.0000
6389,0.0000
6390,0.0000
6391,0.0000
6392,0.0000
6393,0.0000
6394,0.0000
6395,0.0016
6396,0.0022
6396,0.0018
6397,0.0004
6398,0.0000
6399,0.0000
6400,0.0000
6401,0.0000
6402,0.0000
6403,0.0000
6404,0.0000
6405,0.0000
6405,0.0000
6406,0.0010
6407,0.0017
6408,0.0021
6409,0.0019
6410,0.0017
6411,0.0015
6412,0.0012
6413,0.0005
6413,0.0000
6414,0.0000
6415,0.0000
6416,0.0000
6417,0.0000
6418,0.0003
6419,0.0004
6420,0.0002
6421,0.0000
6422,0.0000
6422,0.0000
6423,0.0000
6424,0.0006
6425,0.0008
6426,0.0011
6427,0.0023
6428,0.0034
6429,0.0000
6430,0.0000
6430,0.0000
6431,0.0000
6432,0.0000
6433,0.0000
6434,0.0000
6435,0.0000
6436,0.0000
6437,0.0000
6438,0.0000
6439,0.0000
6439,0.0000
6440,0.0000
6441,0.0000
6442,0.0003
6443,0.0022
6444,0.0042
6445,0.0010
6446,0.0000
6447,0.0000
6447,0.0000
6448,0.0000
6449,0.0014
6450,0.0024
6451,0.0026
6452,0.0026
6453,0.0026
6454,0.0013
6455,0.0000
6456,0.0000
6456,0.0003
6457,0.0010
6458,0.0010
6459,0.0002
6460,0.0000
6461,0.0000
6462,0.0000
6463,0.0000
6464,0.0000
6464,0.0007
6465,0.0000
6466,0.0000
6467,0.0000
6468,0.0000
6469,0.0003
6470,0.0015
6471,0.0000
6472,0.0000
6473,0.0007
6473,0.0016
6474,0.0000
6475,0.0000
6476,0.0000
6477,0.0000
6478,0.0002
6479,0.0002
6480,0.0000
6481,0.0000
6481,0.0000
6482,0.0000
6483,0.0000
6484,0.0014
6485,0.0014
6486,0.0013
6487,0.0028
6488,0.0043
6489,0.0022
6490,0.0000
6490,0.0008
6491,0.0020
6492,0.0015
6493,0.0009
6494,0.0000
6495,0.0000
6496,0.0000
6497,0.0000
6498,0.0000
6498,0.0000
6499,0.0000
6500,0.0000
6501,0.0000
6502,0.0007
6503,0.0004
6504,0.0000
6505,0.0000
6506,0.0000
6507,0.0006
6507,0.0015
6508,0.0008
6509,0.0000
6510,0.0000
6511,0.0006
6512,0.0013
6513,0.0011
6514,0.0009
6515,0.0007
6515,0.0007
6516,0.0013
6517,0.0011
6518,0.0000
6519,0.0000
6520,0.0014
6521,0.0021
6522,0.0012
6523,0.0010
6524,0.0026
6524,0.0035
6525,0.0024
6526,0.0015
6527,0.0011
6528,0.0009
6529,0.0012
6530,0.0014
6531,0.0011
6532,0.0008
6532,0.0010
6533,0.0012
6534,0.0013
6535,0.0013
6536,0.0000
6537,0.0000
6538,0.0000
6539,0.0000
6540,0.0000
6541,0.0038
6541,0.0102
6542,0.0168
6543,0.0364
6544,0.0570
6545,0.0572
6546,0.0552
6547,0.0466
6548,0.0369
6549,0.0258
6549,0.0145
6550,0.0076
6551,0.0018
6552,0.0000
6553,0.0000
6554,0.0004
6555,0.0089
6556,0.0358
6557,0.0710
6558,0.1212
6558,0.1793
6559,0.2288
6560,0.2729
6561,0.2656
6562,0.2215
6563,0.1672
6564,0.1045
6565,0.0557
6566,0.0202
6566,0.0019
6567,0.0025
6568,0.0023
6569,0.0011
6570,0.0005
6571,0.0005
6572,0.0002
6573,0.0000
6574,0.0000
6575,0.0012
6575,0.0061
6576,0.0173
6577,0.0372
6578,0.0809
6579,0.1233
6580,0.1614
6581,0.1895
6582,0.1766
6583,0.1586
6584,0.1139
6584,0.0714
6585,0.0440
6586,0.0185
6587,0.0116
6588,0.0050
6589,0.0013
6590,0.0000
6591,0.0000
6592,0.0012
6592,0.0000
6593,0.0000
6594,0.0000
6595,0.0000
6596,0.0000
6597,0.0000
6598,0.0000
6599,0.0000
6600,0.0000
6601,0.0000
6601,0.0000
6602,0.0000
6603,0.0000
6604,0.0000
6605,0.0000
6606,0.0000
6607,0.0000
6608,0.0000
6609,0.0000
6609,0.0000
6610,0.0000
6611,0.0000
6612,0.0000
6613,0.0000
6614,0.0000
6615,0.0000
6616,0.0000
6617,0.0000
6618,0.0004
6618,0.0027
6619,0.0025
6620,0.0000
6621,0.0000
6622,0.0000
6623,0.0003
6624,0.0000
6625,0.0000
6626,0.0013
6626,0.0019
6627,0.0000
6628,0.0000
6629,0.0000
6630,0.0000
6631,0.0000
6632,0.0000
6633,0.0000
6634,0.0000
6635,0.0000
6635,0.0000
6636,0.0022
6637,0.0044
6638,0.0009
6639,0.0000
6640,0.0032
6641,0.0086
6642,0.0029
6643,0.0000
6643,0.0000
6644,0.0005
6645,0.0000
6646,0.0000
6647,0.0000
6648,0.0000
6649,0.0000
6650,0.0000
6651,0.0000
6652,0.0020
6652,0.0004
6653,0.0000
6654,0.0000
6655,0.0000
6656,0.0000
6657,0.0000
6658,0.0000
6659,0.0000
6660,0.0000
6660,0.0000
6661,0.0018
6662,0.0029
6663,0.0025
6664,0.0008
6665,0.0004
6666,0.0015
6667,0.0016
6668,0.0006
6669,0.0000
6669,0.0000
6670,0.0000
6671,0.0015
6672,0.0031
6673,0.0043
6674,0.0047
6675,0.0039
6676,0.0035
6677,0.0047
6677,0.0050
6678,0.0027
6679,0.0010
6680,0.0021
6681,0.0026
6682,0.0000
6683,0.0000
6684,0.0050
6685,0.0112
6686,0.0077
6686,0.0042
6687,0.0020
6688,0.0000
6689,0.0013
6690,0.0027
6691,0.0000
6692,0.0000
6693,0.0000
6694,0.0034
6694,0.0039
6695,0.0038
6696,0.0015
6697,0.0000
6698,0.0000
6699,0.0021
6700,0.0000
6701,0.0000
6702,0.0000
6703,0.0012
6703,0.0018
6704,0.0006
6705,0.0000
6706,0.0000
6707,0.0000
6708,0.0000
6709,0.0000
6710,0.0000
6711,0.0020
6711,0.0019
6712,0.0025
6713,0.0038
6714,0.0071
6715,0.0125
6716,0.0130
6717,0.0066
6718,0.0035
6719,0.0055
6720,0.0053
6720,0.0007
6721,0.0000
6722,0.0000
6723,0.0000
6724,0.0003
6725,0.0073
6726,0.0057
6727,0.0044
6728,0.0049
6728,0.0055
6729,0.0067
6730,0.0078
6731,0.0086
6732,0.0092
6733,0.0043
6734,0.0000
6735,0.0000
6736,0.0000
6737,0.0016
6737,0.0077
6738,0.0049
6739,0.0015
6740,0.0047
6741,0.0085
6742,0.0061
6743,0.0027
6744,0.0017
6745,0.0011
6745,0.0006
6746,0.0001
6747,0.0011
6748,0.0026
6749,0.0021
6750,0.0007
6751,0.0000
6752,0.0000
6753,0.0000
6754,0.0003
6754,0.0013
6755,0.0022
6756,0.0020
6757,0.0007
6758,0.0009
6759,0.0025
6760,0.0020
6761,0.0000
6762,0.0000
6763,0.0009
6763,0.0022
6764,0.0014
6765,0.0009
6766,0.0008
6767,0.0000
6768,0.0000
6769,0.0000
6770,0.0000
6771,0.0002
6771,0.0000
6772,0.0000
6773,0.0000
6774,0.0000
6775,0.0000
6776,0.0010
6777,0.0000
6778,0.0000
6779,0.0000
6780,0.0000
6780,0.0007
6781,0.0014
6782,0.0001
6783,0.0000
6784,0.0000
6785,0.0000
6786,0.0000
6787,0.0000
6788,0.0000
6788,0.0000
6789,0.0000
6790,0.0000
6791,0.0000
6792,0.0000
6793,0.0000
6794,0.0000
6795,0.0000
6796,0.0000
6797,0.0000
6797,0.0000
6798,0.0000
6799,0.0000
6800,0.0000
6801,0.0000
6802,0.0000
6803,0.0005
6804,0.0013
6805,0.0005
6805,0.0000
6806,0.0000
6807,0.0000
6808,0.0000
6809,0.0000
6810,0.0000
6811,0.0000
6812,0.0000
6813,0.0000
6814,0.0000
6814,0.0000
6815,0.0000
6816,0.0000
6817,0.0000
6818,0.0000
6819,0.0002
6820,0.0014
6821,0.0004
6822,0.0000
6822,0.0000
6823,0.0000
6824,0.0000
6825,0.0000
6826,0.0000
6827,0.0021
6828,0.0022
6829,0.0020
6830,0.0000
6831,0.0000
6831,0.0000
6832,0.0005
6833,0.0015
6834,0.0020
6835,0.0009
6836,0.0000
6837,0.0000
6838,0.0007
6839,0.0016
6839,0.0025
6840,0.0022
6841,0.0012
6842,0.0000
6843,0.0000
6844,0.0000
6845,0.0015
6846,0.0032
6847,0.0015
6848,0.0005
6848,0.0004
6849,0.0000
6850,0.0000
6851,0.0000
6852,0.0000
6853,0.0000
6854,0.0000
6855,0.0005
6856,0.0024
6856,0.0034
6857,0.0011
6858,0.0000
6859,0.0000
6860,0.0002
6861,0.0000
6862,0.0000
6863,0.0007
6864,0.0021
6865,0.0020
6865,0.0018
6866,0.0003
6867,0.0000
6868,0.0000
6869,0.0009
6870,0.0002
6871,0.0000
6872,0.0015
6873,0.0040
6873,0.0030
6874,0.0011
6875,0.0000
6876,0.0000
6877,0.0001
6878,0.0019
6879,0.0023
6880,0.0019
6881,0.0028
6882,0.0044
6882,0.0021
6883,0.0000
6884,0.0000
6885,0.0022
6886,0.0034
6887,0.0003
6888,0.0000
6889,0.0000
6890,0.0000
6890,0.0000
6891,0.0000
6892,0.0000
6893,0.0024
6894,0.0025
6895,0.0016
6896,0.0000
6897,0.0000
6898,0.0000
6899,0.0000
6899,0.0000
6900,0.0018
6901,0.0017
6902,0.0016
6903,0.0012
6904,0.0008
6905,0.0017
6906,0.0026
6907,0.0000
6907,0.0000
6908,0.0000
6909,0.0015
6910,0.0025
6911,0.0033
6912,0.0002
6913,0.0000
6914,0.0000
6915,0.0043
6916,0.0052
6916,0.0049
6917,0.0049
6918,0.0052
6919,0.0012
6920,0.0000
6921,0.0000
6922,0.0000
6923,0.0000
6924,0.0013
6924,0.0025
6925,0.0015
6926,0.0000
6927,0.0000
6928,0.0000
6929,0.0000
6930,0.0000
6931,0.0000
6932,0.0000
6933,0.0000
6933,0.0019
6934,0.0044
6935,0.0053
6936,0.0015
6937,0.0000
6938,0.0000
6939,0.0000
6940,0.0000
6941,0.0000
6942,0.0000
6942,0.0017
6943,0.0029
6944,0.0040
6945,0.0024
6946,0.0007
6947,0.0000
6948,0.0000
6949,0.0000
6950,0.0000
6950,0.0000
6951,0.0000
6952,0.0000
6953,0.0000
6954,0.0000
6955,0.0000
6956,0.0000
6957,0.0000
6958,0.0000
6959,0.0018
6959,0.0000
6960,0.0000
6961,0.0000
6962,0.0000
6963,0.0000
6964,0.0000
6965,0.0011
6966,0.0033
6967,0.0023
6967,0.0000
6968,0.0000
6969,0.0000
6970,0.0008
6971,0.0034
6972,0.0049
6973,0.0039
6974,0.0033
6975,0.0045
6976,0.0048
6976,0.0016
6977,0.0000
6978,0.0002
6979,0.0013
6980,0.0009
6981,0.0005
6982,0.0021
6983,0.0036
6984,0.0019
6984,0.0002
6985,0.0000
6986,0.0000
6987,0.0003
6988,0.0020
6989,0.0000
6990,0.0000
6991,0.0000
6992,0.0000
6993,0.0000
6993,0.0000
6994,0.0000
6995,0.0000
6996,0.0000
6997,0.0000
6998,0.0015
6999,0.0014
7000,0.0003
7001,0.0000
7001,0.0000
7002,0.0000
7003,0.0000
7004,0.0012
7005,0.0030
7006,0.0054
7007,0.0062
7008,0.0039
7009,0.0027
7010,0.0038
7010,0.0051
7011,0.0068
7012,0.0071
7013,0.0019
7014,0.0000
7015,0.0000
7016,0.0000
7017,0.0019
7018,0.0053
7018,0.0033
7019,0.0013
7020,0.0000
7021,0.0000
7022,0.0000
7023,0.0000
7024,0.0000
7025,0.0000
7026,0.0000
7027,0.0000
7027,0.0000
7028,0.0000
7029,0.0000
7030,0.0000
7031,0.0000
7032,0.0000
7033,0.0000
7034,0.0000
7035,0.0000
7035,0.0010
7036,0.0019
7037,0.0018
7038,0.0020
7039,0.0025
7040,0.0019
7041,0.0000
7042,0.0000
7043,0.0000
7044,0.0000
7044,0.0000
7045,0.0000
7046,0.0000
7047,0.0000
7048,0.0009
7049,0.0034
7050,0.0024
7051,0.0012
7052,0.0000
7052,0.0000
7053,0.0000
7054,0.0000
7055,0.0000
7056,0.0000
7057,0.0000
7058,0.0000
7059,0.0000
7060,0.0000
7061,0.0000
7061,0.0000
7062,0.0000
7063,0.0013
7064,0.0005
7065,0.0000
7066,0.0000
7067,0.0000
7068,0.0000
7069,0.0000
7069,0.0000
7070,0.0000
7071,0.0009
7072,0.0063
7073,0.0060
7074,0.0002
7075,0.0000
7076,0.0009
7077,0.0020
7078,0.0010
7078,0.0000
7079,0.0000
7080,0.0000
7081,0.0004
7082,0.0026
7083,0.0016
7084,0.0009
7085,0.0009
7086,0.0008
7086,0.0003
7087,0.0001
7088,0.0018
7089,0.0035
7090,0.0034
7091,0.0032
7092,0.0013
7093,0.0000
7094,0.0000
7095,0.0000
7095,0.0017
7096,0.0057
7097,0.0047
7098,0.0026
7099,0.0036
7100,0.0056
7101,0.0050
7102,0.0035
7103,0.0043
7103,0.0064
7104,0.0033
7105,0.0000
7106,0.0000
7107,0.0000
7108,0.0000
7109,0.0000
7110,0.0000
7111,0.0000
7112,0.0000
7112,0.0002
7113,0.0010
7114,0.0010
7115,0.0017
7116,0.0045
7117,0.0067
7118,0.0070
7119,0.0070
7120,0.0058
7121,0.0043
7121,0.0014
7122,0.0000
7123,0.0000
7124,0.0000
7125,0.0000
7126,0.0000
7127,0.0011
7128,0.0080
7129,0.0064
7129,0.0038
7130,0.0011
7131,0.0000
7132,0.0000
7133,0.0000
7134,0.0002
7135,0.0017
7136,0.0017
7137,0.0011
7138,0.0006
7138,0.0003
7139,0.0009
7140,0.0022
7141,0.0015
7142,0.0000
7143,0.0000
7144,0.0000
7145,0.0000
7146,0.0000
7146,0.0000
7147,0.0000
7148,0.0011
7149,0.0000
7150,0.0000
7151,0.0001
7152,0.0020
7153,0.0017
7154,0.0016
7155,0.0033
7155,0.0046
7156,0.0027
7157,0.0007
7158,0.0004
7159,0.0002
7160,0.0004
7161,0.0006
7162,0.0000
7163,0.0000
7163,0.0022
7164,0.0086
7165,0.0066
7166,0.0024
7167,0.0007
7168,0.0000
7169,0.0000
7170,0.0000
7171,0.0000
7172,0.0000
7172,0.0000
7173,0.0000
7174,0.0000
7175,0.0000
7176,0.0000
7177,0.0000
7178,0.0021
7179,0.0041
7180,0.0034
7180,0.0000
7181,0.0000
7182,0.0000
7183,0.0013
7184,0.0000
7185,0.0000
7186,0.0000
7187,0.0000
7188,0.0000
7189,0.0000
7189,0.0000
7190,0.0027
7191,0.0000
7192,0.0000
7193,0.0000
7194,0.0000
7195,0.0000
7196,0.0000
7197,0.0000
7197,0.0000
7198,0.0000
7199,0.0000
7200,0.0000
7201,0.0000
7202,0.0003
7203,0.0014
7204,0.0000
7205,0.0000
7206,0.0000
7206,0.0082
7207,0.0112
7208,0.0051
7209,0.0008
7210,0.0000
7211,0.0000
7212,0.0022
7213,0.0031
7214,0.0000
7214,0.0000
7215,0.0000
7216,0.0015
7217,0.0000
7218,0.0000
7219,0.0000
7220,0.0004
7221,0.0000
7222,0.0000
7223,0.0008
7223,0.0024
7224,0.0053
7225,0.0083
7226,0.0063
7227,0.0037
7228,0.0021
7229,0.0007
7230,0.0000
7231,0.0000
7231,0.0000
7232,0.0005
7233,0.0010
7234,0.0007
7235,0.0009
7236,0.0012
7237,0.0023
7238,0.0040
7239,0.0030
7240,0.0000
7240,0.0000
7241,0.0000
7242,0.0000
7243,0.0000
7244,0.0000
7245,0.0000
7246,0.0000
7247,0.0000
7248,0.0019
7248,0.0002
7249,0.0000
7250,0.0000
7251,0.0012
7252,0.0023
7253,0.0034
7254,0.0029
7255,0.0024
7256,0.0000
7257,0.0000
7257,0.0000
7258,0.0000
7259,0.0000
7260,0.0049
7261,0.0039
7262,0.0008
7263,0.0000
7264,0.0000
7265,0.0000
7265,0.0000
7266,0.0000
7267,0.0015
7268,0.0009
7269,0.0000
7270,0.0000
7271,0.0030
7272,0.0042
7273,0.0000
7274,0.0000
7274,0.0000
7275,0.0018
7276,0.0009
7277,0.0005
7278,0.0024
7279,0.0038
7280,0.0013
7281,0.0000
7282,0.0017
7282,0.0044
7283,0.0104
7284,0.0164
7285,0.0120
7286,0.0069
7287,0.0000
7288,0.0000
7289,0.0000
7290,0.0041
7291,0.0041
7291,0.0010
7292,0.0003
7293,0.0007
7294,0.0007
7295,0.0005
7296,0.0011
7297,0.0023
7298,0.0018
7299,0.0000
7300,0.0000
7300,0.0013
7301,0.0016
7302,0.0000
7303,0.0000
7304,0.0000
7305,0.0000
7306,0.0000
7307,0.0000
7308,0.0000
7308,0.0072
7309,0.0034
7310,0.0000
7311,0.0008
7312,0.0018
7313,0.0033
7314,0.0048
7315,0.0037
7316,0.0025
7317,0.0009
7317,0.0000
7318,0.0000
7319,0.0000
7320,0.0000
7321,0.0000
7322,0.0000
7323,0.0052
7324,0.0052
7325,0.0009
7325,0.0000
7326,0.0000
7327,0.0000
7328,0.0039
7329,0.0042
7330,0.0000
7331,0.0000
7332,0.0024
7333,0.0062
7334,0.0064
7334,0.0059
7335,0.0032
7336,0.0005
7337,0.0000
7338,0.0000
7339,0.0000
7340,0.0000
7341,0.0000
7342,0.0000
7342,0.0023
7343,0.0055
7344,0.0052
7345,0.0045
7346,0.0030
7347,0.0013
7348,0.0009
7349,0.0008
7350,0.0004
7351,0.0000
7351,0.0004
7352,0.0016
7353,0.0019
7354,0.0015
7355,0.0005
7356,0.0000
7357,0.0000
7358,0.0000
7359,0.0000
7359,0.0000
7360,0.0015
7361,0.0000
7362,0.0000
7363,0.0000
7364,0.0000
7365,0.0000
7366,0.0000
7367,0.0000
7368,0.0000
7368,0.0000
7369,0.0000
7370,0.0000
7371,0.0000
7372,0.0027
7373,0.0071
7374,0.0061
7375,0.0042
7376,0.0030
7376,0.0019
7377,0.0005
7378,0.0000
7379,0.0000
7380,0.0000
7381,0.0000
7382,0.0000
7383,0.0000
7384,0.0000
7385,0.0000
7385,0.0000
7386,0.0000
7387,0.0000
7388,0.0000
7389,0.0000
7390,0.0000
7391,0.0000
7392,0.0006
7393,0.0043
7393,0.0071
7394,0.0037
7395,0.0003
7396,0.0000
7397,0.0000
7398,0.0000
7399,0.0000
